#RAD(Kpc) RAD(arcs)  VROT(km/s) DISP(km/s) INC(deg)  P.A.(deg) Z0(pc)    Z0(arcs)  SIG(E20)  XPOS(pix) YPOS(pix) VSYS(km/s) VRAD(km/s) 
0.233     15.000     45.171     23.418     60.000    114.590   155.144   10.000    1.000     77.000    77.000    132.800    0.000      
0.698     45.000     66.765     21.267     60.000    124.741   155.144   10.000    1.000     77.000    77.000    132.800    0.000      
1.164     75.000     76.288     18.098     60.000    126.844   155.144   10.000    1.000     77.000    77.000    132.800    0.000      
1.629     105.000    85.292     15.984     60.000    126.303   155.144   10.000    1.000     77.000    77.000    132.800    0.000      
2.094     135.000    91.521     14.703     60.000    125.005   155.144   10.000    1.000     77.000    77.000    132.800    0.000      
2.560     165.000    96.822     14.192     60.000    123.851   155.144   10.000    1.000     77.000    77.000    132.800    0.000      
3.025     195.000    103.463    13.083     60.000    123.172   155.144   10.000    1.000     77.000    77.000    132.800    0.000      
3.491     225.000    109.935    12.709     60.000    122.963   155.144   10.000    1.000     77.000    77.000    132.800    0.000      
3.956     255.000    115.623    11.859     60.000    123.074   155.144   10.000    1.000     77.000    77.000    132.800    0.000      
4.422     285.000    121.408    12.379     60.000    123.340   155.144   10.000    1.000     77.000    77.000    132.800    0.000      
4.887     315.000    124.019    12.017     60.000    123.642   155.144   10.000    1.000     77.000    77.000    132.800    0.000      
5.352     345.000    125.706    11.341     60.000    123.917   155.144   10.000    1.000     77.000    77.000    132.800    0.000      
5.818     375.000    126.072    11.271     60.000    124.143   155.144   10.000    1.000     77.000    77.000    132.800    0.000      
6.283     405.000    125.893    10.643     60.000    124.319   155.144   10.000    1.000     77.000    77.000    132.800    0.000      
6.749     435.000    126.617    10.456     60.000    124.446   155.144   10.000    1.000     77.000    77.000    132.800    0.000      
7.214     465.000    126.698    10.311     60.000    124.526   155.144   10.000    1.000     77.000    77.000    132.800    0.000      
7.680     495.000    126.288    9.804      60.000    124.557   155.144   10.000    1.000     77.000    77.000    132.800    0.000      
8.145     525.000    127.243    10.337     60.000    124.536   155.144   10.000    1.000     77.000    77.000    132.800    0.000      
8.611     555.000    127.366    10.622     60.000    124.464   155.144   10.000    1.000     77.000    77.000    132.800    0.000      
9.076     585.000    127.169    10.064     60.000    124.353   155.144   10.000    1.000     77.000    77.000    132.800    0.000      
9.541     615.000    126.958    9.801      60.000    124.220   155.144   10.000    1.000     77.000    77.000    132.800    0.000      
10.007    645.000    127.628    8.766      60.000    124.087   155.144   10.000    1.000     77.000    77.000    132.800    0.000      
10.472    675.000    129.323    8.971      60.000    123.977   155.144   10.000    1.000     77.000    77.000    132.800    0.000      
10.938    705.000    130.890    9.115      60.000    123.905   155.144   10.000    1.000     77.000    77.000    132.800    0.000      
11.403    735.000    132.573    8.926      60.000    123.874   155.144   10.000    1.000     77.000    77.000    132.800    0.000      
11.869    765.000    133.556    8.657      60.000    123.881   155.144   10.000    1.000     77.000    77.000    132.800    0.000      
12.334    795.000    134.606    8.530      60.000    123.912   155.144   10.000    1.000     77.000    77.000    132.800    0.000      
12.799    825.000    135.527    9.123      60.000    123.958   155.144   10.000    1.000     77.000    77.000    132.800    0.000      
13.265    855.000    135.074    9.816      60.000    124.011   155.144   10.000    1.000     77.000    77.000    132.800    0.000      
13.730    885.000    134.391    9.918      60.000    124.068   155.144   10.000    1.000     77.000    77.000    132.800    0.000      
14.196    915.000    134.445    9.631      60.000    124.127   155.144   10.000    1.000     77.000    77.000    132.800    0.000      
14.661    945.000    134.545    8.985      60.000    124.178   155.144   10.000    1.000     77.000    77.000    132.800    0.000      
15.127    975.000    134.748    8.971      60.000    124.206   155.144   10.000    1.000     77.000    77.000    132.800    0.000      
15.592    1005.000   135.424    8.962      60.000    124.192   155.144   10.000    1.000     77.000    77.000    132.800    0.000      
16.057    1035.000   136.175    8.980      60.000    124.119   155.144   10.000    1.000     77.000    77.000    132.800    0.000      
16.523    1065.000   136.653    9.006      60.000    123.965   155.144   10.000    1.000     77.000    77.000    132.800    0.000      
16.988    1095.000   136.865    8.770      60.000    123.698   155.144   10.000    1.000     77.000    77.000    132.800    0.000      
17.454    1125.000   136.455    8.886      60.000    123.288   155.144   10.000    1.000     77.000    77.000    132.800    0.000      
17.919    1155.000   135.500    8.972      60.000    122.763   155.144   10.000    1.000     77.000    77.000    132.800    0.000      
18.385    1185.000   134.172    8.405      60.000    122.261   155.144   10.000    1.000     77.000    77.000    132.800    0.000      
18.850    1215.000   134.518    7.675      60.000    121.874   155.144   10.000    1.000     77.000    77.000    132.800    0.000      
